Folder: Manuscript_Impurities_2025/Results/Py_dosed_spectra

Note: README.md
# Description
This repository hosts the companion jupyter notebook for the publication *The Effect of Impurities in Post-Consumer Plastic Waste on the Cracking of Polyolefins with Zeolite-based Catalysts* (https://doi.org/To-be-added)
It provides an executable version of the manuscript generating all figures and analyses from raw experimental data.
The raw data is hosted on the Open Science Foundation repository under DOI: https://doi.org/10.17605/OSF.IO/5WTZY

# Getting started
## In Google Colab
The easiest way to run the notebook is in Google Colab.
Click the link below and run the notebook.
<a href="https://colab.research.google.com/github/MyonicS/Manuscript_Impurities_2025/blob/main/Impurities_notebook.ipynb" target="_parent"><img src="https://colab.research.google.com/assets/colab-badge.svg" alt="Open In Colab"/></a>
At release the notebook is running python 3.10. 
Cells at the top of the notebook clone the repository, install packages and download the experimental data to the Colab runtime. Note that these steps can take a couple minutes.  

## Running the notebook locally
The notebook is optimized to run in Google Colab. When running the notebook locally delete or comment out all code cells before importing of modules. 
1. Clone the repository:
   ```sh
   git clone https://github.com/MyonicS/Manuscript_Impurities_2025
   ```
2. (optional but recommended: Create a new python 3.10 environment)
3. Install the remaining requirements by navigating to the repository and running.
   ```sh
   pip install -r requirements.txt
   ```
4. Download the experimental data from the OSF repository.
   You can do this manually by downloading the ZIP file from [here](https://doi.org/10.17605/OSF.IO/5WTZY) and unzipping the folder into the repository, or by using the [datahugger](https://github.com/J535D165/datahugger) library
5. Run the notebook in your IDE of choice. We recommend VS code as it allows for interactive plots in-line, which can be enabled using 
   ```python
   %matplotlib widget
   ```
	at the start of a cell.
	
# Citing

When utilizing code or data from this study in an academic publication please cite the following manuscript:
> Rejman, S., Faroughi, N., Vollmer, I., Weckhuysen, B.M. The Effect of Impurities in Post-Consumer Plastic Waste on the Cracking of Polyolefins with Zeolite-based Catalysts. _ChemRxiv_ (2024). https://doi.org/To-be-added

Alternatively, the data itself can be cited as:
> Rejman, S. et al. Experimental data supporting: ‘The Effect of Impurities in Post-Consumer Plastic Waste on the Cracking of Polyolefins with Zeolite-based Catalysts’. OSF http://dx.doi.org/10.17605/OSF.IO/5WTZY (2024)


# Bugs and Comments
Feels free to submit bug reports, comments or questions as issues.

File: TiO2_py_dosed_spectrum.csv
,wavenumber,absorbance,absorbance_byweight
0,4000.12,0.009011984,0.000728326
22,3989.52,0.00630641,0.0005096682
44,3978.91,0.00716114,0.0005787454
66,3968.3,0.00917244,0.0007412935
88,3957.7,0.008102417,0.000654817
110,3947.09,0.00603175,0.000487471
132,3936.48,0.008343458,0.000674297
154,3925.88,0.00510895,0.0004128927
176,3915.27,0.0069617,0.000562627
198,3904.66,0.005156398,0.0004167271
220,3894.06,0.00607491,0.000490959
242,3883.45,0.0043149,0.000348719
264,3872.84,0.00392008,0.000316811
286,3862.24,0.00453663,0.000366639
308,3851.63,0.00368464,0.000297783
330,3841.02,0.00263393,0.000212868
352,3830.42,0.003957391,0.000319826
374,3819.81,0.00364447,0.0002945366
396,3809.2,0.00456154,0.000368652
418,3798.6,0.00141776,0.000114579
440,3787.99,-0.00356066,-0.000287764
462,3777.38,-0.001339674,-0.000108269
484,3766.78,-0.0008584261,-6.937584e-05
506,3756.17,-0.000404477,-3.26888e-05
528,3745.56,0.00547338,0.000442344
550,3734.96,-0.06337166,-0.005121538
572,3724.35,-0.00168908,-0.0001365069
594,3713.74,0.0115566,0.0009339774
616,3703.14,0.0150908,0.0012196
638,3692.53,0.0162005,0.00130929
660,3681.93,0.0152632,0.00123353
682,3671.32,0.008985043,0.000726149
704,3660.71,0.0117949,0.000953236
726,3650.11,0.00531685,0.000429695
748,3639.5,-0.007809162,-0.000631117
770,3628.89,-0.105767,-0.008547786
792,3618.29,-0.0573276,-0.00463307
814,3607.68,-0.0184996,-0.00149509
836,3597.07,-0.0167214,-0.00135138
858,3586.47,-0.00350738,-0.000283457
880,3575.86,-0.00413835,-0.0003344511
902,3565.25,-0.065552,-0.00529775
924,3554.65,-0.04366958,-0.00352927
946,3544.04,-0.0193024,-0.00155997
968,3533.43,0.00118041,9.53978e-05
990,3522.83,0.0062027,0.0005012864
1012,3512.22,0.009673357,0.0007817764
1034,3501.61,0.0116558,0.000941993
1056,3491.01,0.0125592,0.001015001
1078,3480.4,0.0143213,0.00115741
1100,3469.79,0.0151353,0.0012232
1122,3459.19,0.01523447,0.00123121
1144,3448.58,0.015101,0.00122042
1166,3437.97,0.01482439,0.00119807
1188,3427.37,0.014289,0.0011548
1210,3416.76,0.0150518,0.001216452
1232,3406.15,0.0142428,0.00115106
1254,3395.55,0.0140333,0.00113414
1276,3384.94,0.0139534,0.00112768
1298,3374.33,0.0151087,0.00122105
1320,3363.73,0.01505661,0.00121684
1342,3353.12,0.0162418,0.00131262
1364,3342.52,0.0168381,0.00136081
1386,3331.91,0.0182158,0.00147215
1408,3321.3,0.0204879,0.001655781
1430,3310.7,0.0226885,0.00183363
1452,3300.09,0.02632606,0.002127606
1474,3289.48,0.031085,0.00251221
1496,3278.88,0.0368285,0.00297639
1518,3268.27,0.04331124,0.00350031
1540,3257.66,0.0497998,0.00402469
1562,3247.06,0.05430329,0.004388655
1584,3236.45,0.0554192,0.004478841
1606,3225.84,0.0528849,0.00427403
1628,3215.24,0.0456738,0.00369125
1650,3204.63,0.0448583,0.003625338
1672,3194.02,0.0534292,0.00431802
1694,3183.42,0.06962061,0.00562656
1716,3172.81,0.08093315,0.006540814
1738,3162.2,0.08269036,0.00668283
1760,3151.6,0.0835166,0.0067496
1782,3140.99,0.119815,0.009683175
1804,3130.38,0.103039,0.008327379
1826,3119.78,0.112942,0.009127706
1848,3109.17,0.207234,0.0167481
1870,3098.56,0.177157,0.0143174
1892,3087.96,0.140538,0.011358
1914,3077.35,0.157344,0.0127161
1936,3066.74,0.151878,0.0122744
1958,3056.14,0.113838,0.009200117
1980,3045.53,0.1041885,0.008420253
2002,3034.92,0.102255,0.008263962
2024,3024.32,0.09796405,0.007917208
2046,3013.71,0.0834008,0.00674025
2068,3003.1,0.0717621,0.005799631
2090,2992.5,0.07446897,0.006018395
2112,2981.89,0.09073931,0.007333323
2134,2971.29,0.0953202,0.007703536
2156,2960.68,0.0926669,0.00748911
2178,2950.07,0.0882982,0.00713604
2200,2939.47,0.08083707,0.00653305
2222,2928.86,0.07677102,0.00620444
2244,2918.25,0.08392137,0.00678231
2266,2907.65,0.09554416,0.007721639
2288,2897.04,0.104566,0.008450798
2310,2886.43,0.114673,0.00926759
2332,2875.83,0.118739,0.009596154
2354,2865.22,0.107723,0.008705926
2376,2854.61,0.1095894,0.00885674
2398,2844.01,0.118497,0.009576607
2420,2833.4,0.120394,0.009729926
2442,2822.79,0.121631,0.009829928
2464,2812.19,0.122503,0.009900349
2486,2801.58,0.119243,0.009636951
2508,2790.97,0.113158,0.009145144
2530,2780.37,0.111211,0.008987832
2552,2769.76,0.115055,0.009298448
2574,2759.15,0.115964,0.009371885
2596,2748.55,0.109645,0.008861205
2618,2737.94,0.104746,0.008465283
2640,2727.33,0.102142,0.008254882
2662,2716.73,0.103518,0.008366089
2684,2706.12,0.107309,0.008672413
2706,2695.51,0.10717,0.008661195
2728,2684.91,0.102436,0.008278582
2750,2674.3,0.102388,0.008274724
2772,2663.69,0.104171,0.008418851
2794,2653.09,0.101851,0.00823135
2816,2642.48,0.09890854,0.00799354
2838,2631.88,0.09660077,0.00780703
2860,2621.27,0.0939602,0.00759362
2882,2610.66,0.09107947,0.007360814
2904,2600.06,0.0888208,0.007178275
2926,2589.45,0.0878304,0.00709823
2948,2578.84,0.08465725,0.006841786
2970,2568.24,0.08159214,0.00659407
2992,2557.63,0.0780157,0.006305036
3014,2547.02,0.07436949,0.006010355
3036,2536.42,0.07030201,0.00568163
3058,2525.81,0.06666434,0.00538764
3080,2515.2,0.0634127,0.005124857
3102,2504.6,0.0609294,0.00492416
3124,2493.99,0.05832708,0.004713848
3146,2483.38,0.0564595,0.00456292
3168,2472.78,0.05352056,0.0043254
3190,2462.17,0.05048895,0.00408039
3212,2451.56,0.0485933,0.003927187
3234,2440.96,0.0469786,0.00379669
3256,2430.35,0.04330349,0.003499679
3278,2419.74,0.03958881,0.003199468
3300,2409.14,0.0368686,0.00297963
3322,2398.53,0.03451836,0.00278969
3344,2387.92,0.0329715,0.00266467
3366,2377.32,0.0302433,0.00244419
3388,2366.71,0.0259394,0.00209636
3410,2356.1,0.0245195,0.0019816
3432,2345.5,0.02454698,0.00198383
3454,2334.89,0.025168,0.00203401
3476,2324.28,0.0244893,0.001979167
3498,2313.68,0.0241061,0.001948198
3520,2303.07,0.02428925,0.001962996
3542,2292.46,0.0244938,0.00197953
3564,2281.86,0.0246992,0.00199613
3586,2271.25,0.0254085,0.00205345
3608,2260.65,0.0270936,0.00218964
3630,2250.04,0.0271982,0.00219809
3652,2239.43,0.0270736,0.002188022
3674,2228.83,0.0276563,0.00223511
3696,2218.22,0.02855277,0.002307563
3718,2207.61,0.0293853,0.00237485
3740,2197.01,0.0310693,0.002510941
3762,2186.4,0.0340958,0.002755534
3784,2175.79,0.03814578,0.003082846
3806,2165.19,0.0417168,0.003371448
3828,2154.58,0.0444406,0.00359158
3850,2143.97,0.0451149,0.00364607
3872,2133.37,0.04366958,0.00352927
3894,2122.76,0.0408365,0.0033003
3916,2112.15,0.0368187,0.0029756
3938,2101.55,0.0323575,0.002615048
3960,2090.94,0.0286044,0.00231173
3982,2080.33,0.0254701,0.00205843
4004,2069.73,0.0238614,0.001928419
4026,2059.12,0.0239253,0.001933583
4048,2048.51,0.0252026,0.00203681
4070,2037.91,0.0251002,0.00202854
4092,2027.3,0.0252032,0.00203686
4114,2016.69,0.0249604,0.00201724
4136,2006.09,0.02388823,0.00193059
4158,1995.48,0.021799,0.00176174
4180,1984.87,0.01983416,0.001602947
4202,1974.27,0.0187162,0.0015126
4224,1963.66,0.0175053,0.00141473
4246,1953.05,0.0159036,0.00128529
4268,1942.45,0.0131946,0.00106635
4290,1931.84,0.009698987,0.000783848
4312,1921.24,0.00708985,0.0005729841
4334,1910.63,0.00589323,0.000476276
4356,1900.02,0.00515401,0.000416534
4378,1889.42,0.006241441,0.0005044175
4400,1878.81,0.0054884,0.000443558
4422,1868.2,0.005621195,0.000454291
4444,1857.6,0.006557107,0.0005299289
4466,1846.99,0.00555992,0.000449339
4488,1836.38,0.00581133,0.000469657
4510,1825.78,0.00483954,0.000391119
4532,1815.17,0.00374877,0.000302967
4554,1804.56,0.002326727,0.00018804
4576,1793.96,0.000219226,1.77173e-05
4598,1783.35,-0.0009925365,-8.02143e-05
4620,1772.74,-0.00359476,-0.000290519
4642,1762.14,-0.002899766,-0.0002343518
4664,1751.53,-0.003082037,-0.000249082
4686,1740.92,-0.003038764,-0.000245585
4708,1730.32,-0.00184107,-0.000148791
4730,1719.71,0.000821352,6.63796e-05
4752,1709.1,0.00265944,0.000214929
4774,1698.5,0.00171983,0.000138993
4796,1687.89,0.00516236,0.000417209
4818,1677.28,0.00754714,0.0006099409
4840,1666.68,0.0107362,0.0008676749
4862,1656.07,0.0129689,0.00104811
4884,1645.46,0.0238404,0.00192672
4906,1634.86,0.0965717,0.00780468
4928,1624.25,0.12699,0.010263
4950,1613.64,0.0987128,0.00797772
4972,1603.04,0.0386739,0.00312553
4994,1592.43,0.0118636,0.0009587855
5016,1581.82,0.008255005,0.000667149
5038,1571.22,0.00705111,0.000569853
5060,1560.61,0.00385737,0.0003117433
5082,1550.01,0.0478103,0.00386391
5104,1539.4,0.06717515,0.00542893
5126,1528.79,0.008938432,0.0007223816
5148,1518.19,0.000547528,4.42499e-05
5170,1507.58,-0.00178146,-0.0001439734
5192,1496.97,0.0259151,0.0020944
5214,1486.37,0.149929,0.01211686
5236,1475.76,0.009118438,0.0007369292
5258,1465.15,0.007984519,0.000645289
5280,1454.55,0.0908593,0.00734302
5302,1443.94,0.0136629,0.001104204
5324,1433.33,-0.000521421,-4.214e-05
5346,1422.73,-0.00211632,-0.000171036
5368,1412.12,-0.00438619,-0.000354481
5390,1401.51,0.000113487,9.171754e-06
5412,1390.91,0.00386167,0.00031209
5434,1380.3,-0.006200433,-0.0005011034
5456,1369.69,-0.009762764,-0.000789002
5478,1359.09,-0.0106702,-0.000862342
5500,1348.48,-0.009871781,-0.0007978125
5522,1337.87,-0.0195054,-0.00157638
5544,1327.27,-0.0250651,-0.0020257
5566,1316.66,-0.03430277,-0.00277226
5588,1306.05,-0.04161513,-0.00336323
5610,1295.45,-0.0427945,-0.00345854
5632,1284.84,-0.04193473,-0.00338906
5654,1274.23,-0.05607152,-0.004531559
5676,1263.63,-0.0855584,-0.006914616
5698,1253.02,-0.2614889,-0.0211329
5720,1242.41,-0.128216,-0.0103621
5742,1231.81,-0.2117672,-0.0171145
5764,1221.2,-0.2117002,-0.0171091
5786,1210.6,-0.159984,-0.0129295
5808,1199.99,-0.042758,-0.003455593
5830,1189.38,-0.105012,-0.00848682
5852,1178.78,-0.311434,-0.0251693
5874,1168.17,-0.209219,-0.01690859
5896,1157.56,-0.4636674,-0.0374724
5918,1146.96,-0.4475057,-0.0361663
5940,1136.35,-0.597768,-0.0483101
5962,1125.74,,
5984,1115.14,-1.58298,-0.127932
6006,1104.53,,
6028,1093.92,,
6050,1083.32,,
6072,1072.71,-0.995585,-0.0804607
6094,1062.1,-0.433237,-0.0350131
6116,1051.5,-0.567067,-0.0458289
6138,1040.89,-0.198794,-0.0160661
6160,1030.28,,
6182,1019.68,,
6204,1009.07,,
6223,999.91,,