Folder: Manuscript_Impurities_2025/Results/TGA

Note: README.md
# Description
This repository hosts the companion jupyter notebook for the publication *The Effect of Impurities in Post-Consumer Plastic Waste on the Cracking of Polyolefins with Zeolite-based Catalysts* (https://doi.org/To-be-added)
It provides an executable version of the manuscript generating all figures and analyses from raw experimental data.
The raw data is hosted on the Open Science Foundation repository under DOI: https://doi.org/10.17605/OSF.IO/5WTZY

# Getting started
## In Google Colab
The easiest way to run the notebook is in Google Colab.
Click the link below and run the notebook.
<a href="https://colab.research.google.com/github/MyonicS/Manuscript_Impurities_2025/blob/main/Impurities_notebook.ipynb" target="_parent"><img src="https://colab.research.google.com/assets/colab-badge.svg" alt="Open In Colab"/></a>
At release the notebook is running python 3.10. 
Cells at the top of the notebook clone the repository, install packages and download the experimental data to the Colab runtime. Note that these steps can take a couple minutes.  

## Running the notebook locally
The notebook is optimized to run in Google Colab. When running the notebook locally delete or comment out all code cells before importing of modules. 
1. Clone the repository:
   ```sh
   git clone https://github.com/MyonicS/Manuscript_Impurities_2025
   ```
2. (optional but recommended: Create a new python 3.10 environment)
3. Install the remaining requirements by navigating to the repository and running.
   ```sh
   pip install -r requirements.txt
   ```
4. Download the experimental data from the OSF repository.
   You can do this manually by downloading the ZIP file from [here](https://doi.org/10.17605/OSF.IO/5WTZY) and unzipping the folder into the repository, or by using the [datahugger](https://github.com/J535D165/datahugger) library
5. Run the notebook in your IDE of choice. We recommend VS code as it allows for interactive plots in-line, which can be enabled using 
   ```python
   %matplotlib widget
   ```
	at the start of a cell.
	
# Citing

When utilizing code or data from this study in an academic publication please cite the following manuscript:
> Rejman, S., Faroughi, N., Vollmer, I., Weckhuysen, B.M. The Effect of Impurities in Post-Consumer Plastic Waste on the Cracking of Polyolefins with Zeolite-based Catalysts. _ChemRxiv_ (2024). https://doi.org/To-be-added

Alternatively, the data itself can be cited as:
> Rejman, S. et al. Experimental data supporting: ‘The Effect of Impurities in Post-Consumer Plastic Waste on the Cracking of Polyolefins with Zeolite-based Catalysts’. OSF http://dx.doi.org/10.17605/OSF.IO/5WTZY (2024)


# Bugs and Comments
Feels free to submit bug reports, comments or questions as issues.

File: Results_full_001_NF_1_PP1-004_N_N_ZY.csv
filename,Tmax,T50,polymer_weight,cat_weight,coke_weight,num_loading,num_run
001_NF_1_PP1-004_N_N_ZY_P_1_1.txt,238.93,225.25,4.727729,2.079311,0.064668,1,1
001_NF_1_PP1-004_N_N_ZY_P_1_2.txt,268.87,248.6,4.70856,1.051766,0.035332,2,1
001_NF_1_PP1-004_N_N_ZY_P_1_3.txt,295.87,272.27,4.14836,0.522631,0.020054,3,1
001_NF_1_PP1-004_N_N_ZY_S010101_2_1.txt,241.41,227.65,4.66503,2.067556,0.054505,1,2
001_NF_1_PP1-004_N_N_ZY_S010102_2_2.txt,266.08,248.07,4.652119,1.04621,0.030488,2,2
001_NF_1_PP1-004_N_N_ZY_S010103_2_3.txt,303.73,277.81,4.640737,0.519921,0.018055,3,2
001_NF_1_PP1-004_N_N_ZY_S010201_3_1.txt,237.39,225.14,4.5822,2.04137,0.051186,1,3
001_NF_1_PP1-004_N_N_ZY_S010202_3_2.txt,261.6,245.75,4.37265,1.043263,0.028489,2,3
001_NF_1_PP1-004_N_N_ZY_S010203_3_3.txt,297.62,273.03,4.137686,0.517516,0.01687,3,3

File: Results_full_002_NF_1_PP1-004_Na_LL_ZY.csv
filename,Tmax,T50,polymer_weight,cat_weight,coke_weight,num_loading,num_run
002_NF_1_PP1-004_Na_LL_ZY_P_1_1.txt,237.38,226.71,4.587654,2.090083,0.070021,1,1
002_NF_1_PP1-004_Na_LL_ZY_P_1_2.txt,264.02,246.6,4.639992,1.07951,0.039024,2,1
002_NF_1_PP1-004_Na_LL_ZY_P_1_3.txt,291.13,269.95,4.576509,0.57629,0.023441,3,1
002_NF_1_PP1-004_Na_LL_ZY_S020101_2_1.txt,242.1,230.84,4.73298,2.084832,0.048273,1,2
002_NF_1_PP1-004_Na_LL_ZY_S020102_2_2.txt,281.12,260.19,4.7256,1.083134,0.025272,2,2
002_NF_1_PP1-004_Na_LL_ZY_S020103_2_3.txt,318.79,295.62,4.61323,0.577306,0.016497,3,2
002_NF_1_PP1-004_Na_LL_ZY_S010201_3_1.txt,245.64,234.21,4.736808,2.089846,0.045393,1,3
002_NF_1_PP1-004_Na_LL_ZY_S010202_3_2.txt,293.37,272.69,4.193039,1.084523,0.01538,2,3
002_NF_1_PP1-004_Na_LL_ZY_S010203_3_3.txt,340.44,321.18,4.73193,0.574359,0.016768,3,3

File: Results_full_003_NF_1_PP1-004_Ca_LL_ZY.csv
filename,Tmax,T50,polymer_weight,cat_weight,coke_weight,num_loading,num_run
003_NF_1_PP1-004_Ca_LL_ZY_P_1_1.txt,239.83,226.82,4.84118,2.004107,0.07456,1,1
003_NF_1_PP1-004_Ca_LL_ZY_P_1_2.txt,280.5,260.23,4.594632,0.762266,0.025,2,1
003_NF_1_PP1-004_Ca_LL_ZY_P_1_3.txt,266.2,246.77,4.589382,1.036081,0.035875,3,1
003_NF_1_PP1-004_Ca_LL_ZY_S030101_2_1.txt,242.83,230.16,4.514009,1.984967,0.062196,1,2
003_NF_1_PP1-004_Ca_LL_ZY_S030102_2_2.txt,262.4,245.06,4.569124,1.034354,0.028557,2,2
003_NF_1_PP1-004_Ca_LL_ZY_S030103_2_3.txt,281.58,260.74,4.661807,0.76125,0.023069,3,2
003_NF_1_PP1-004_Ca_LL_ZY_S030201_3_1.txt,239.54,227.36,4.62109,1.980055,0.050983,1,3
003_NF_1_PP1-004_Ca_LL_ZY_S030202_3_2.txt,281.93,261.75,4.672546,0.766534,0.022121,2,3
003_NF_1_PP1-004_Ca_LL_ZY_S030203_3_3.txt,262.74,245.89,4.634267,1.037165,0.027914,3,3

File: Results_full_004_NF_1_PP1-004_K_LL_ZY.csv
filename,Tmax,T50,polymer_weight,cat_weight,coke_weight,num_loading,num_run
004_NF_1_PP1-004_K_LL_ZY_P_1_1.txt,237.38,226.71,4.587654,2.090083,0.070021,1,1
004_NF_1_PP1-004_K_LL_ZY_P_1_2.txt,266.99,249.31,4.611502,1.030052,0.036924,2,1
004_NF_1_PP1-004_K_LL_ZY_P_1_3.txt,291.85,265.92,4.727831,0.660165,0.025542,3,1
004_NF_1_PP1-004_K_LL_ZY_S040101_2_1.txt,239.04,227.36,4.556184,2.038186,0.050847,1,2
004_NF_1_PP1-004_K_LL_ZY_S040102_2_2.txt,272.11,253.84,4.682709,1.037267,0.027507,2,2
004_NF_1_PP1-004_K_LL_ZY_S040103_2_3.txt,301.46,277.44,4.806185,0.666771,0.01914,3,2
004_NF_1_PP1-004_K_LL_ZY_S040201_3_1.txt,243.17,232.24,4.70808,2.044859,0.045664,1,3
004_NF_1_PP1-004_K_LL_ZY_S040202_3_2.txt,283.24,261.06,4.65063,1.040892,0.022459,2,3
004_NF_1_PP1-004_K_LL_ZY_S040203_3_3.txt,322.56,298.9,4.721631,0.669617,0.01504,3,3

File: Results_full_005_NF_1_PP1-004_TiO2_LL_ZY.csv
filename,Tmax,T50,polymer_weight,cat_weight,coke_weight,num_loading,num_run
101_SR_1_PP1-004_TiO2_LL_ZY_1_01.txt,253.01,240.91,4.649951,2.079412,0.039668,01,1
101_SR_1_PP1-004_TiO2_LL_ZY_1_02.txt,279.34,262.24,4.76418,1.108372,0.029031,02,1
101_SR_1_PP1-004_TiO2_LL_ZY_1_03.txt,297.12,276.09,4.620209,0.636181,0.029303,03,1
101_SR_2_PP1-004_TiO2_LL_ZY_2_01.txt,251.7,240.68,4.442261,2.080225,0.027507,01,2
101_SR_2_PP1-004_TiO2_LL_ZY_2_02.txt,277.58,260.64,4.571936,1.102206,0.026457,02,2
101_SR_2_PP1-004_TiO2_LL_ZY_2_03.txt,303.77,281.4,4.687079,0.646954,0.027913,03,2
101_SR_3_PP1-004_TiO2_LL_ZY_3_01.txt,254.24,241.97,4.693007,2.094792,0.025101,01,3
101_SR_3_PP1-004_TiO2_LL_ZY_3_02.txt,277.22,262.27,4.585893,1.117518,0.025745,02,3
101_SR_3_PP1-004_TiO2_LL_ZY_3_03.txt,309.33,287.48,4.80629,0.652306,0.02666,03,3

File: Results_full_006_NF_1_PP1-004_MgCl.6H2o_LL_ZY.csv
filename,Tmax,T50,polymer_weight,cat_weight,coke_weight,num_loading,num_run
006_NF_1_PP1-004_MgCl.6H2o_LL_ZY_P_1_1.txt,256.13,243.22,4.660622,1.981851,0.037737,1,1
006_NF_1_PP1-004_MgCl.6H2o_LL_ZY_P_1_2.txt,281.1,261.7,4.70178,0.969923,0.026389,2,1
006_NF_1_PP1-004_MgCl.6H2o_LL_ZY_P_1_3.txt,299.43,280.35,4.65639,0.668702,0.020766,3,1
006_NF_1_PP1-004_MgCl.6H2o_LL_ZY_S060101_2_1.txt,254.0,242.17,4.66679,2.022027,0.032385,1,2
006_NF_1_PP1-004_MgCl.6H2o_LL_ZY_S060102_2_2.txt,283.79,267.46,4.64392,1.035099,0.022087,2,2
006_NF_1_PP1-004_MgCl.6H2o_LL_ZY_S060103_2_3.txt,299.58,279.59,4.424543,0.697903,0.018597,3,2
006_NF_1_PP1-004_MgCl.6H2o_LL_ZY_S060201_3_1.txt,254.61,243.45,4.652763,2.025313,0.033063,1,3
006_NF_1_PP1-004_MgCl.6H2o_LL_ZY_S060202_3_2.txt,284.7,268.13,4.71354,1.036928,0.020766,2,3
006_NF_1_PP1-004_MgCl.6H2o_LL_ZY_S060203_3_3.txt,301.67,281.69,4.636977,0.694718,0.018869,3,3

File: Results_full_007_NF_1_PP1-004_SiO2_LL_ZY.csv
filename,Tmax,T50,polymer_weight,cat_weight,coke_weight,num_loading,num_run
007_NF_1_PP1-004_SiO2_LL_ZY_P_1_1.txt,253.85,240.83,4.72329,1.918842,0.040075,1,1
007_NF_1_PP1-004_SiO2_LL_ZY_P_1_2.txt,289.08,269.05,4.78434,0.95163,0.020698,2,1
007_NF_1_PP1-004_SiO2_LL_ZY_P_1_3.txt,305.21,283.34,4.70693,0.5707,0.01748,3,1
007_NF_1_PP1-004_SiO2_LL_ZY_S070101_2_1.txt,255.23,242.54,4.724714,1.923585,0.030556,1,2
007_NF_1_PP1-004_SiO2_LL_ZY_S070102_2_2.txt,283.37,266.09,4.65466,0.948683,0.014465,2,2
007_NF_1_PP1-004_SiO2_LL_ZY_S070103_2_3.txt,304.6,285.24,4.71069,0.564738,0.017886,3,2
007_NF_1_PP1-004_SiO2_LL_ZY_S070201_3_1.txt,254.31,241.55,4.59101,1.922264,0.029472,1,3
007_NF_1_PP1-004_SiO2_LL_ZY_S070202_3_2.txt,285.95,268.76,4.7363,0.94831,0.015413,2,3
007_NF_1_PP1-004_SiO2_LL_ZY_S070203_3_3.txt,308.07,288.12,4.733962,0.553017,0.018903,3,3

File: Results_full_008_NF_1_PP1-004_(NH4)2SO4_LL_ZY.csv
filename,Tmax,T50,polymer_weight,cat_weight,coke_weight,num_loading,num_run
008_NF_1_PP1-004_(NH4)2SO4_LL_ZY_P_1_1.txt,257.58,243.8,4.792804,1.893605,0.043293,1,1
008_NF_1_PP1-004_(NH4)2SO4_LL_ZY_P_1_2.txt,286.69,267.56,4.77295,0.981068,0.021748,2,1
008_NF_1_PP1-004_(NH4)2SO4_LL_ZY_P_1_3.txt,302.98,281.85,4.835148,0.682659,0.018021,3,1
008_NF_1_PP1-004_(NH4)2SO4_LL_ZY_S080101_2_1.txt,255.28,243.01,4.62187,1.890387,0.032283,1,2
008_NF_1_PP1-004_(NH4)2SO4_LL_ZY_S080102_2_2.txt,284.53,268.0,4.63132,0.978561,0.016429,2,2
008_NF_1_PP1-004_(NH4)2SO4_LL_ZY_S080103_2_3.txt,303.48,285.54,4.608318,0.673953,0.017547,3,2
008_NF_1_PP1-004_(NH4)2SO4_LL_ZY_S080201_3_1.txt,259.11,246.16,4.70202,1.887643,0.028489,1,3
008_NF_1_PP1-004_(NH4)2SO4_LL_ZY_S080202_3_2.txt,286.76,270.23,4.65842,0.96623,0.015989,2,3
008_NF_1_PP1-004_(NH4)2SO4_LL_ZY_S080203_3_3.txt,306.38,288.95,4.624104,0.668329,0.017954,3,3

File: Results_full_009_NF_1_PP1-004_NH4Cl_LL_ZY.csv
filename,Tmax,T50,polymer_weight,cat_weight,coke_weight,num_loading,num_run
009_NF_1_PP1-004_NH4Cl_LL_ZY_P_1_1.txt,245.82,231.55,4.687214,1.665488,0.053828,1,1
009_NF_1_PP1-004_NH4Cl_LL_ZY_P_1_2.txt,268.97,250.62,4.712587,0.977206,0.035942,2,1
009_NF_1_PP1-004_NH4Cl_LL_ZY_P_1_3.txt,287.97,267.03,4.669395,0.569447,0.024458,3,1
009_NF_1_PP1-004_NH4Cl_LL_ZY_S090101_2_1.txt,246.73,232.39,4.68464,1.679885,0.046172,1,2
009_NF_1_PP1-004_NH4Cl_LL_ZY_S090102_2_2.txt,270.63,252.53,4.638433,0.989977,0.03208,2,2
009_NF_1_PP1-004_NH4Cl_LL_ZY_S090103_2_3.txt,292.18,272.59,4.786165,0.581811,0.021782,3,2
009_NF_1_PP1-004_NH4Cl_LL_ZY_S090201_3_1.txt,246.1,232.67,4.763942,1.678225,0.046105,1,3
009_NF_1_PP1-004_NH4Cl_LL_ZY_S090202_3_2.txt,271.84,253.41,4.778169,0.988453,0.031978,2,3
009_NF_1_PP1-004_NH4Cl_LL_ZY_S090203_3_3.txt,293.6,272.17,4.724002,0.580389,0.022323,3,3

File: Results_full_010_NF_1_PP1-004_Pigment_LL_ZY.csv
filename,Tmax,T50,polymer_weight,cat_weight,coke_weight,num_loading,num_run
010_NF_1_PP1-004_Pigment_LL_ZY_P_1_1.txt,246.07,233.74,4.821056,2.272672,0.069546,1,1
010_NF_1_PP1-004_Pigment_LL_ZY_P_1_2.txt,280.69,260.45,4.708217,1.050377,0.048747,2,1
010_NF_1_PP1-004_Pigment_LL_ZY_P_1_3.txt,291.56,270.16,4.63237,0.76545,0.042209,3,1
010_NF_1_PP1-004_Pigment_LL_ZY_S100101_2_1.txt,241.05,238.38,4.694091,2.280294,0.05664,1,2
010_NF_1_PP1-004_Pigment_LL_ZY_S100102_2_2.txt,295.04,274.31,4.793448,1.061522,0.047798,2,2
010_NF_1_PP1-004_Pigment_LL_ZY_S100103_2_3.txt,308.97,286.15,4.541618,0.774935,0.042074,3,2
010_NF_1_PP1-004_Pigment_LL_ZY_S100201_3_1.txt,256.8,242.63,4.70852,2.288255,0.051626,1,3
010_NF_1_PP1-004_Pigment_LL_ZY_S100202_3_2.txt,307.51,287.27,4.638603,1.034083,0.040176,2,3
010_NF_1_PP1-004_Pigment_LL_ZY_S100203_3_3.txt,325.81,306.41,4.79172,0.791026,0.041159,3,3

File: Results_full_011_NF_1_PP1-004_Cu_LL_ZY.csv
filename,Tmax,T50,polymer_weight,cat_weight,coke_weight,num_loading,num_run
011_NF_1_PP1-004_Cu_LL_ZY_P_1_1.txt,258.16,244.71,4.82312,2.00492,0.038415,1,1
011_NF_1_PP1-004_Cu_LL_ZY_P_1_2.txt,296.55,274.76,4.79473,0.947294,0.021545,2,1
011_NF_1_PP1-004_Cu_LL_ZY_P_1_3.txt,302.27,278.48,4.653338,0.688079,0.022899,3,1
011_NF_1_PP1-004_Cu_LL_ZY_S110101_2_1.txt,263.57,250.14,4.70225,2.005157,0.028489,1,2
011_NF_1_PP1-004_Cu_LL_ZY_S110102_2_2.txt,308.72,288.86,4.740635,0.940011,0.023272,2,2
011_NF_1_PP1-004_Cu_LL_ZY_S110103_2_3.txt,322.31,301.95,4.749207,0.68818,0.024357,3,2
011_NF_1_PP1-004_Cu_LL_ZY_S110201_3_1.txt,277.02,260.99,4.77773,2.007596,0.027473,1,3
011_NF_1_PP1-004_Cu_LL_ZY_S110202_3_2.txt,325.67,307.97,4.75405,0.940485,0.023916,2,3
011_NF_1_PP1-004_Cu_LL_ZY_S110203_3_3.txt,337.95,321.6,4.693345,0.685132,0.024661,3,3

File: Results_full_024_NF_1_RPW_All_HL_ZY.csv
filename,Tmax,T50,polymer_weight,cat_weight,coke_weight,num_loading,num_run
024_NF_1_RPW_All_HL_ZY_P_1_1.txt,411.02,406.26,4.684233,2.06654,0.099018,1,1
024_NF_1_RPW_All_HL_ZY_P_1_2.txt,413.37,406.46,4.62959,1.177071,0.097358,2,1
024_NF_1_RPW_All_HL_ZY_P_1_3.txt,416.7,412.03,4.525764,0.775342,0.067819,3,1
024_NF_1_RPW_All_HL_ZY_S240101_2_1.txt,416.22,411.47,4.50398,2.27047,0.140515,1,2
024_NF_1_RPW_All_HL_ZY_S240102_2_2.txt,416.87,412.87,4.638738,1.353732,0.115244,2,2
024_NF_1_RPW_All_HL_ZY_S240103_2_3.txt,434.43,422.51,4.34978,0.935065,0.091497,3,2
024_NF_1_RPW_All_HL_ZY_S240201_3_1.txt,411.89,407.22,4.591787,2.415897,0.116261,1,3
024_NF_1_RPW_All_HL_ZY_S240202_3_2.txt,411.59,408.18,4.427423,1.496856,0.110129,2,3
024_NF_1_RPW_All_HL_ZY_S240203_3_3.txt,430.49,425.82,4.602458,1.088385,0.11765,3,3

File: Results_full_031_NF_1_PP1-004_Ca_HL_ZY.csv
filename,Tmax,T50,polymer_weight,cat_weight,coke_weight,num_loading,num_run
031_NF_1_PP1-004_Ca_HL_ZY_P_1_1.txt,252.24,242.48,4.739315,1.65231,0.038618,1,1
031_NF_1_PP1-004_Ca_HL_ZY_P_1_2.txt,274.58,263.39,4.674003,0.678661,0.021105,2,1
031_NF_1_PP1-004_Ca_HL_ZY_P_1_3.txt,299.45,282.92,4.78508,0.235028,0.022493,3,1
031_NF_1_PP1-004_Ca_HL_ZY_S310101_2_1.txt,256.56,249.8,4.70256,1.516097,0.01731,1,2
031_NF_1_PP1-004_Ca_HL_ZY_S310102_2_2.txt,288.86,278.18,4.68207,0.586994,0.019242,2,2
031_NF_1_PP1-004_Ca_HL_ZY_S310103_2_3.txt,322.0,312.82,4.641346,0.166058,0.021375,3,2
031_NF_1_PP1-004_Ca_HL_ZY_S310201_3_1.txt,261.33,254.81,4.6616,1.511964,0.015447,1,3
031_NF_1_PP1-004_Ca_HL_ZY_S310202_3_2.txt,300.82,292.41,4.724342,0.591567,0.018869,2,3
031_NF_1_PP1-004_Ca_HL_ZY_S310203_3_3.txt,343.92,334.24,4.649036,0.169581,0.021172,3,3

File: Results_full_032_NF_1_PP1-004_TiO2_HL_ZY.csv
filename,Tmax,T50,polymer_weight,cat_weight,coke_weight,num_loading,num_run
032_NF_1_PP1-004_TiO2_HL_ZY_P_1_1.txt,258.93,243.91,5.2404,2.178058,0.043326,1,1
032_NF_1_PP1-004_TiO2_HL_ZY_P_1_2.txt,291.29,271.68,4.708386,0.961759,0.027337,2,1
032_NF_1_PP1-004_TiO2_HL_ZY_P_1_3.txt,310.59,289.81,4.799409,0.595904,0.029505,3,1
032_NF_1_PP1-004_TiO2_HL_ZY_S320101_2_1.txt,259.02,246.49,5.000292,2.187407,0.030353,1,2
032_NF_1_PP1-004_TiO2_HL_ZY_S320102_2_2.txt,301.47,284.11,5.277935,0.977341,0.027982,2,2
032_NF_1_PP1-004_TiO2_HL_ZY_S320103_2_3.txt,319.35,299.91,4.874952,0.593126,0.028963,3,2
032_NF_1_PP1-004_TiO2_HL_ZY_S320201_3_1.txt,269.27,255.4,5.699278,2.288051,0.046952,1,3
032_NF_1_PP1-004_TiO2_HL_ZY_S320202_3_2.txt,325.08,311.65,4.883895,1.012098,0.022053,2,3
032_NF_1_PP1-004_TiO2_HL_ZY_S320203_3_3.txt,340.32,329.89,4.73718,0.676866,0.024898,3,3